wavelength q_factor smth smth2 stmth3
9.441E-02 1.758E+00 4.327E-01  5.86E-02
8.913E-02 1.848E+00 4.526E-01  6.75E-02
8.414E-02 1.978E+00 5.799E-01  6.79E-02
7.943E-02 2.074E+00 6.866E-01  7.74E-02
7.499E-02 2.006E+00 6.812E-01  9.99E-02
7.079E-02 1.782E+00 6.240E-01  1.26E-01
6.683E-02 1.448E+00 5.134E-01  1.53E-01
6.310E-02 1.212E+00 4.177E-01  1.76E-01
5.957E-02 1.083E+00 3.826E-01  1.99E-01
5.623E-02 9.382E-01 3.541E-01  2.22E-01
5.309E-02 7.933E-01 3.114E-01  2.47E-01
5.012E-02 6.934E-01 2.781E-01  2.74E-01
4.732E-02 6.068E-01 2.510E-01  3.03E-01
4.467E-02 5.323E-01 2.227E-01  3.35E-01
4.217E-02 4.660E-01 1.900E-01  3.70E-01
3.981E-02 4.511E-01 1.615E-01  4.12E-01
3.758E-02 4.689E-01 1.467E-01  4.57E-01
3.548E-02 4.778E-01 1.607E-01  4.99E-01
3.350E-02 4.393E-01 1.577E-01  5.39E-01
3.162E-02 4.040E-01 1.516E-01  5.80E-01
2.985E-02 3.708E-01 1.442E-01  6.21E-01
2.818E-02 3.396E-01 1.361E-01  6.60E-01
2.661E-02 3.105E-01 1.279E-01  6.98E-01
2.512E-02 2.830E-01 1.196E-01  7.31E-01
2.371E-02 2.572E-01 1.116E-01  7.60E-01
2.239E-02 2.332E-01 1.039E-01  7.83E-01
2.113E-02 2.110E-01 9.656E-02  8.00E-01
1.995E-02 1.906E-01 8.968E-02  8.13E-01
1.884E-02 1.717E-01 8.297E-02  8.25E-01
1.778E-02 1.546E-01 7.652E-02  8.38E-01
1.679E-02 1.389E-01 7.027E-02  8.53E-01
1.585E-02 1.247E-01 6.420E-02  8.69E-01
1.496E-02 1.116E-01 5.841E-02  8.84E-01
1.413E-02 9.965E-02 5.302E-02  8.95E-01
1.334E-02 8.884E-02 4.803E-02  9.02E-01
1.259E-02 7.910E-02 4.343E-02  9.09E-01
1.189E-02 7.041E-02 3.916E-02  9.17E-01
1.122E-02 6.231E-02 3.505E-02  9.26E-01
1.059E-02 5.511E-02 3.128E-02  9.34E-01
1.000E-02 4.873E-02 2.788E-02  9.39E-01
9.441E-03 4.301E-02 2.477E-02  9.43E-01
8.913E-03 3.788E-02 2.189E-02  9.49E-01
8.414E-03 3.334E-02 1.926E-02  9.55E-01
7.943E-03 2.930E-02 1.687E-02  9.58E-01
7.499E-03 2.569E-02 1.467E-02  9.62E-01
7.079E-03 2.255E-02 1.268E-02  9.66E-01
6.683E-03 1.975E-02 1.085E-02  9.69E-01
6.310E-03 1.727E-02 9.153E-03  9.71E-01
5.957E-03 1.512E-02 7.595E-03  9.74E-01